Folder: fortgeschrittenenpraktikum/v44/tables

Note: v44/tables/detektorscan.txt
theta I
-0.3000      1836
-0.2900      2122
-0.2800      2236
-0.2700      2418
-0.2600      2579
-0.2500      2644
-0.2400      3160
-0.2300      3646
-0.2200      4368
-0.2100      4898
-0.2000      5479
-0.1900      6142
-0.1800      6781
-0.1700      7939
-0.1600      9296
-0.1500     11164
-0.1400     13036
-0.1300     15916
-0.1200     20495
-0.1100     26592
-0.1000     34614
-0.0900     45569
-0.0800     60869
-0.0700     92128
-0.0600    141444
-0.0500    198646
-0.0400    249182
-0.0300    318370
-0.0200    392259
-0.0100    456486
 0.0000    506208
 0.0100    505924
 0.0200    445386
 0.0300    351661
 0.0400    252666
 0.0500    175980
 0.0600    124592
 0.0700     98877
 0.0800     69837
 0.0900     52169
 0.1000     36003
 0.1100     27611
 0.1200     22698
 0.1300     19287
 0.1400     17893
 0.1500     13613
 0.1600     11112
 0.1700      8819
 0.1800      6282
 0.1900      5170
 0.2000      4288
 0.2100      3740
 0.2200      3374
 0.2300      2970
 0.2400      2524
 0.2500      2225
 0.2600      1970
 0.2700      1773
 0.2800      1670
 0.2900      1542
 0.3000      1348

Note: v44/tables/reflektivitätsscan.txt
alpha I
   0.0000    129406
   0.0050    458359
   0.0100   1042670
   0.0150   1516050
   0.0200   1741100
   0.0250   1588030
   0.0300   1217860
   0.0350    920066
   0.0400    787022
   0.0450    760087
   0.0500    709556
   0.0550    684876
   0.0600    667067
   0.0650    680246
   0.0700    697412
   0.0750    731214
   0.0800    772618
   0.0850    801521
   0.0900    838001
   0.0950    868105
   0.1000    902685
   0.1050    935984
   0.1100    972744
   0.1150    951808
   0.1200    981773
   0.1250   1023720
   0.1300   1060250
   0.1350   1089790
   0.1400   1129360
   0.1450   1164740
   0.1500   1196010
   0.1550   1217300
   0.1600   1247970
   0.1650   1247330
   0.1700   1236220
   0.1750   1241250
   0.1800   1240380
   0.1850   1244120
   0.1900   1269200
   0.1950   1300170
   0.2000   1333990
   0.2050   1352020
   0.2100   1374960
   0.2150   1374670
   0.2200   1340700
   0.2250   1264020
   0.2300   1144690
   0.2350    987998
   0.2400    788752
   0.2450    594524
   0.2500    414249
   0.2550    270251
   0.2600    193375
   0.2650    163577
   0.2700    158166
   0.2750    155751
   0.2800    142351
   0.2850    117464
   0.2900     86999
   0.2950     61463
   0.3000     46121
   0.3050     41897
   0.3100     46988
   0.3150     53190
   0.3200     56128
   0.3250     52937
   0.3300     45292
   0.3350     34013
   0.3400     24195
   0.3450     18315
   0.3500     17017
   0.3550     19271
   0.3600     23052
   0.3650     26260
   0.3700     26064
   0.3750     23562
   0.3800     18873
   0.3850     13878
   0.3900      9862
   0.3950      8182
   0.4000      8352
   0.4050     10244
   0.4100     12310
   0.4150     13548
   0.4200     13404
   0.4250     12078
   0.4300      9530
   0.4350      6942
   0.4400      4963
   0.4450      4117
   0.4500      4399
   0.4550      5716
   0.4600      6646
   0.4650      7582
   0.4700      7669
   0.4750      6910
   0.4800      5452
   0.4850      4084
   0.4900      2986
   0.4950      2372
   0.5000      2595
   0.5050      3201
   0.5100      3839
   0.5150      4419
   0.5200      4564
   0.5250      4185
   0.5300      3493
   0.5350      2606
   0.5400      1878
   0.5450      1463
   0.5500      1505
   0.5550      1882
   0.5600      2288
   0.5650      2793
   0.5700      2849
   0.5750      2666
   0.5800      2355
   0.5850      1787
   0.5900      1316
   0.5950       988
   0.6000       940
   0.6050      1126
   0.6100      1465
   0.6150      1600
   0.6200      1859
   0.6250      1814
   0.6300      1572
   0.6350      1247
   0.6400       956
   0.6450       758
   0.6500       675
   0.6550       665
   0.6600       800
   0.6650      1067
   0.6700      1206
   0.6750      1181
   0.6800      1169
   0.6850       970
   0.6900       782
   0.6950       580
   0.7000       485
   0.7050       456
   0.7100       568
   0.7150       643
   0.7200       789
   0.7250       841
   0.7300       835
   0.7350       682
   0.7400       581
   0.7450   

Note: v44/tables/rockingscan_1_1.txt
-1.0000         2
-0.9600         0
-0.9200         2
-0.8800         0
-0.8400         7
-0.8000         4
-0.7600        10
-0.7200        13
-0.6800         8
-0.6400        12
-0.6000        18
-0.5600        19
-0.5200        19
-0.4800        38
-0.4400        57
-0.4000        70
-0.3600       205
-0.3200      2735
-0.2800     13939
-0.2400     33952
-0.2000     61084
-0.1600     94460
-0.1200    133822
-0.0800    177973
-0.0400    218127
 0.0000    215141
 0.0400    171082
 0.0800    140888
 0.1200    104634
 0.1600     75188
 0.2000     50464
 0.2400     30014
 0.2800     14230
 0.3200      4273
 0.3600       445
 0.4000        95
 0.4400        58
 0.4800        42
 0.5200        23
 0.5600        25
 0.6000        20
 0.6400        17
 0.6800        10
 0.7200         9
 0.7600         6
 0.8000         3
 0.8400         4
 0.8800         2
 0.9200         4
 0.9600         2
 1.0000         1

Note: v44/tables/rockingscan_1_2.txt
-1.0000         0
-0.9600         0
-0.9200         0
-0.8800         2
-0.8400         0
-0.8000         2
-0.7600         2
-0.7200         2
-0.6800         5
-0.6400        12
-0.6000         9
-0.5600        14
-0.5200        16
-0.4800        27
-0.4400        31
-0.4000        35
-0.3600        89
-0.3200       149
-0.2800      1567
-0.2400     10606
-0.2000     28527
-0.1600     53696
-0.1200     85485
-0.0800    124381
-0.0400    165717
 0.0000    207604
 0.0400    235641
 0.0800    196931
 0.1200    159438
 0.1600    129173
 0.2000     95386
 0.2400     67257
 0.2800     44144
 0.3200     24915
 0.3600     10524
 0.4000      2550
 0.4400       248
 0.4800        83
 0.5200        48
 0.5600        41
 0.6000        40
 0.6400        28
 0.6800        16
 0.7200        18
 0.7600        17
 0.8000        15
 0.8400         7
 0.8800         9
 0.9200         5
 0.9600         2
 1.0000         5

Note: v44/tables/rockingscan_1_3.txt
-1.0000         0
-0.9600         0
-0.9200         0
-0.8800         1
-0.8400         2
-0.8000         3
-0.7600         5
-0.7200         5
-0.6800         9
-0.6400         4
-0.6000        16
-0.5600        20
-0.5200        25
-0.4800        28
-0.4400        50
-0.4000        65
-0.3600       145
-0.3200      1543
-0.2800     10447
-0.2400     28851
-0.2000     53914
-0.1600     85478
-0.1200    123190
-0.0800    165659
-0.0400    207865
 0.0000    237055
 0.0400    205463
 0.0800    163246
 0.1200    134423
 0.1600     99479
 0.2000     71285
 0.2400     47271
 0.2800     27071
 0.3200     12106
 0.3600      3352
 0.4000       298
 0.4400        89
 0.4800        66
 0.5200        50
 0.5600        34
 0.6000        20
 0.6400        19
 0.6800        26
 0.7200        16
 0.7600        11
 0.8000         7
 0.8400         7
 0.8800         1
 0.9200         4
 0.9600         6
 1.0000         4

Note: v44/tables/rockingscan_1_4.txt
-0.2000     77104
-0.1800     91229
-0.1600    107249
-0.1400    125704
-0.1200    143831
-0.1000    162991
-0.0800    183136
-0.0600    199617
-0.0400    221216
-0.0200    240571
 0.0000    260250
 0.0200    243952
 0.0400    222346
 0.0600    199712
 0.0800    177671
 0.1000    156365
 0.1200    145075
 0.1400    124335
 0.1600    106557
 0.1800     90752
 0.2000     76171

Note: v44/tables/rockingscan_3_2.txt
0.2350       889
0.2360       791
0.2370       896
0.2380       940
0.2390      1085
0.2400      1186
0.2410      1256
0.2420      1373
0.2430      1435
0.2440      1586
0.2450      1696
0.2460      1759
0.2470      1845
0.2480      1958
0.2490      1836
0.2500      1877
0.2510      1895
0.2520      1811
0.2530      1723
0.2540      1674
0.2550      1603
0.2560      1503
0.2570      1407
0.2580      1343
0.2590      1239
0.2600      1139
0.2610      1038
0.2620       873
0.2630       861
0.2640       735
0.2650       635

File: detectorscan.UXD
; C:\DIFFDAT1\Praktikum\Teasdale Wagner\detectorscan.raw(Diffrac Plus V1.01 file) converted by XCH V1.0
_FILEVERSION=2
_SITE='Deutschland'
_USER='Administrator'
_GONIOMETER_CODE=4885
; D8 Theta/Theta; Special
_SAMPLE_CHANGER_CODE=0
_ATTACHMENTS_CODE=0
_GONIOMETER_RADIUS=350
_FIXED_DIVSLIT=0.600000
_FIXED_SAMPLESLIT=0.000000
_FIXED_DETSLIT=11.66
_MONOCHROMATOR=0
; None
_THIN_FILM='N'
_BETA_FILTER='Y'
_FIXED_ANTISLIT=8.340000
_ANALYZER_CODE=0
; None
_DATEMEASURED='15-May-2023 09:27:56'
_WL_UNIT='A'
_WL1=1.540600
_WL2=1.544390
_WL3=1.392220
_WLRATIO=0.500000
_ANODE='Cu'
; (Data for Range number 1)
_DRIVE='2THETA'
_STEPTIME=1.000000
_STEPSIZE=0.010000
_STEPMODE='S'
_START=-0.300000
_THETA=0.000000
_2THETA=-0.300000
_KHI=0.000000
_PHI=92.46
_X=0.000000
_Y=0.000000
_Z=-10
_DIVERGENCE=0.000000
_ANTISCATTER=0.000000
_DETECTOR=5
_DETECTORSLIT='unkn'
_AUX1=0.000000
_AUX2=0.000000
_AUX3=0.000000
_TIMESTARTED=3.000000
_TEMP_RATE=-1.000000
_TEMP_DELAY=-1.000000
_KV=40
_MA=35
_RANGE_WL=1.540600
_3DPLANE=0
_GONIOMETER=-0.300000
_PSDCHANNEL0=0
_2THETACOUNTS
  -0.3000      1836
  -0.2900      2122
  -0.2800      2236
  -0.2700      2418
  -0.2600      2579
  -0.2500      2644
  -0.2400      3160
  -0.2300      3646
  -0.2200      4368
  -0.2100      4898
  -0.2000      5479
  -0.1900      6142
  -0.1800      6781
  -0.1700      7939
  -0.1600      9296
  -0.1500     11164
  -0.1400     13036
  -0.1300     15916
  -0.1200     20495
  -0.1100     26592
  -0.1000     34614
  -0.0900     45569
  -0.0800     60869
  -0.0700     92128
  -0.0600    141444
  -0.0500    198646
  -0.0400    249182
  -0.0300    318370
  -0.0200    392259
  -0.0100    456486
   0.0000    506208
   0.0100    505924
   0.0200    445386
   0.0300    351661
   0.0400    252666
   0.0500    175980
   0.0600    124592
   0.0700     98877
   0.0800     69837
   0.0900     52169
   0.1000     36003
   0.1100     27611
   0.1200     22698
   0.1300     19287
   0.1400     17893
   0.1500     13613
   0.1600     11112
   0.1700      8819
   0.1800      6282
   0.1900      5170
   0.2000      4288
   0.2100      3740
   0.2200      3374
   0.2300      2970
   0.2400      2524
   0.2500      2225
   0.2600      1970
   0.2700      1773
   0.2800      1670
   0.2900      1542
   0.3000      1348

File: Messung2.UXD
; C:\DIFFDAT1\Praktikum\Teasdale Wagner\Messung2.raw(Diffrac Plus V1.01 file) converted by XCH V1.0
_FILEVERSION=2
_SITE='Deutschland'
_USER='Administrator'
_GONIOMETER_CODE=4885
; D8 Theta/Theta; Special
_SAMPLE_CHANGER_CODE=0
_ATTACHMENTS_CODE=0
_GONIOMETER_RADIUS=350
_FIXED_DIVSLIT=0.600000
_FIXED_SAMPLESLIT=0.000000
_FIXED_DETSLIT=11.66
_MONOCHROMATOR=0
; None
_THIN_FILM='N'
_BETA_FILTER='Y'
_FIXED_ANTISLIT=8.340000
_ANALYZER_CODE=0
; None
_DATEMEASURED='15-May-2023 12:25:06'
_WL_UNIT='A'
_WL1=1.540600
_WL2=1.544390
_WL3=1.392220
_WLRATIO=0.500000
_ANODE='Cu'
; (Data for Range number 1)
_DRIVE='THETA'
_STEPTIME=5.000660
_STEPSIZE=0.005000
_STEPMODE='C'
_START=0.000000
_THETA=0.000000
_2THETA=0.100000
_KHI=0.000000
_PHI=92.46
_X=3.061000
_Y=-0.575000
_Z=0.385000
_DIVERGENCE=0.000000
_ANTISCATTER=0.000000
_DETECTOR=5
_DETECTORSLIT='unkn'
_AUX1=0.000000
_AUX2=0.000000
_AUX3=0.000000
_TIMESTARTED=2.000000
_TEMP_RATE=-1.000000
_TEMP_DELAY=-1.000000
_KV=40
_MA=35
_RANGE_WL=1.540600
_3DPLANE=0
_GONIOMETER=0.097500
_PSDCHANNEL0=0
_2THETACOUNTS
   0.0000    306501
   0.0100    176574
   0.0200    109363
   0.0300     92707
   0.0400     72868
   0.0500     50823
   0.0600     43609
   0.0700     45187
   0.0800     50254
   0.0900     52593
   0.1000     50550
   0.1100     46879
   0.1200     36524
   0.1300     31243
   0.1400     23480
   0.1500     17141
   0.1600     14497
   0.1700     12825
   0.1800     10865
   0.1900      9119
   0.2000      7759
   0.2100      6586
   0.2200      5391
   0.2300      3723
   0.2400      2449
   0.2500      1684
   0.2600      1230
   0.2700       887
   0.2800       778
   0.2900       620
   0.3000       542
   0.3100       470
   0.3200       424
   0.3300       342
   0.3400       300
   0.3500       228
   0.3600       184
   0.3700       171
   0.3800       109
   0.3900       114
   0.4000       106
   0.4100        92
   0.4200       100
   0.4300        62
   0.4400        83
   0.4500        54
   0.4600        59
   0.4700        56
   0.4800        61
   0.4900        61
   0.5000        49
   0.5100        56
   0.5200        42
   0.5300        32
   0.5400        34
   0.5500        34
   0.5600        22
   0.5700        37
   0.5800        18
   0.5900        25
   0.6000        24
   0.6100        24
   0.6200        29
   0.6300        19
   0.6400        19
   0.6500        19
   0.6600        20
   0.6700        17
   0.6800        16
   0.6900        30
   0.7000        27
   0.7100        21
   0.7200        26
   0.7300        14
   0.7400        10
   0.7500        20
   0.7600        16
   0.7700        12
   0.7800        14
   0.7900         8
   0.8000        10
   0.8100        14
   0.8200         9
   0.8300         3
   0.8400         8
   0.8500         5
   0.8600         6
   0.8700         7
   0.8800         6
   0.8900         9
   0.9000         6
   0.9100        13
   0.9200         3
   0.9300         5
   0.9400         6
   0.9500         9
   0.9600         9
   0.9700         6
   0.9800         6
   0.9900         8
   1.0000         3
   1.0100         4
   1.0200         2
   1.0300         3
   1.0400         6
   1.0500         4
   1.0600         4
   1.0700         3
   1.0800         4
   1.0900         4
   1.1000         2
   1.1100         5
   1.1200         4
   1.1300         3
   1.1400         5
   1.1500         2
   1.1600         0
   1.1700         4
   1.1800         2
   1.1900         2
   1.2000         4
   1.2100         0
   1.2200         2
   1.2300         1
   1.2400         6
   1.2500         4
   1.2600         0
   1.2700         1
   1.2800         1
   1.2900         5
   1.3000         2
   1.3100         1
   1.3200         1
   1.3300         2
   1.3400         2
   1.3500         4
   1.3600         1
   1.3700         2
   1.3800         0
   1.3900         0
   1.4000         0
   1.4100         1
   1.4200         2
   1.4300         1
   1.4400         1
   1.4500         5
   1.4600         0
   1.4700         3
   1.4800         0
   1.4900         1
   1.5000         1
   1.5100         2
   1.5200         1
   1.5300         0
   1.5400         1
   1.5500         0
   1.5600         1
   1.5700         1
   1.5800         1
   1.5900         1
   1.6000         1
   1.6100         0
   1.6200         2
   1.6300         0
   1.6400         2
   1.6500         0
   1.6600         1
   1.6700         1
   1.6800         2
   1.6900         1
   1.7000         0
   1.7100         0
   1.7200         0
   1.7300         0
   1.7400         0
   1.7500         0
   1.7600         0
   1.7700         0
   1.7800         0
   1.7900         1
   1.8000         0
   1.8100         0
   1.8200         0
   1.8300         0
   1.8400         0
   1.8500         0
   1.8600         0
   1.8700         0
   1.8800         0
   1.8900         0
   1.9000         0
   1.9100         0
   1.9200         0
   1.9300         1
   1.9400         0
   1.9500         1
   1.9600         0
   1.9700         0
   1.9800         0
   1.9900         0
   2.0000         0
   2.0100         0
   2.0200         0
   2.0300         0
   2.0400         0
   2.0500         0
   2.0600         0
   2.0700         0
   2.0800         0
   2.0900         0
   2.1000         0
   2.1100         0
   2.1200         1
   2.1300         0
   2.1400         0
   2.1500         0
   2.1600         1
   2.1700         0
   2.1800         0
   2.1900         0
   2.2000         0
   2.2100         0
   2.2200         0
   2.2300         0
   2.2400         0
   2.2500         0
   2.2600         1
   2.2700         0
   2.2800         0
   2.2900         0
   2.3000         2
   2.3100         0
   2.3200         0
   2.3300         1
   2.3400         1
   2.3500         0
   2.3600         0
   2.3700         0
   2.3800         1
   2.3900         0
   2.4000         0
   2.4100         0
   2.4200         0
   2.4300         0
   2.4400         0
   2.4500         0
   2.4600         0
   2.4700         0
   2.4800         0
   2.4900         0
   2.5000         0

File: rockingscan_1_1.UXD
; C:\DIFFDAT1\Praktikum\Teasdale Wagner\rockingscan_1_1.raw(Diffrac Plus V1.01 file) converted by XCH V1.0
_FILEVERSION=2
_SITE='Deutschland'
_USER='Administrator'
_GONIOMETER_CODE=4885
; D8 Theta/Theta; Special
_SAMPLE_CHANGER_CODE=0
_ATTACHMENTS_CODE=0
_GONIOMETER_RADIUS=350
_FIXED_DIVSLIT=0.600000
_FIXED_SAMPLESLIT=0.000000
_FIXED_DETSLIT=11.66
_MONOCHROMATOR=0
; None
_THIN_FILM='N'
_BETA_FILTER='Y'
_FIXED_ANTISLIT=8.340000
_ANALYZER_CODE=0
; None
_DATEMEASURED='15-May-2023 09:39:17'
_WL_UNIT='A'
_WL1=1.540600
_WL2=1.544390
_WL3=1.392220
_WLRATIO=0.500000
_ANODE='Cu'
; (Data for Range number 1)
_DRIVE='THETA'
_STEPTIME=1.000000
_STEPSIZE=0.040000
_STEPMODE='C'
_START=-1.000000
_THETA=-1.000000
_2THETA=0.000000
_KHI=0.000000
_PHI=92.46
_X=3.061000
_Y=0.000000
_Z=0.326000
_DIVERGENCE=0.000000
_ANTISCATTER=0.000000
_DETECTOR=5
_DETECTORSLIT='unkn'
_AUX1=0.000000
_AUX2=0.000000
_AUX3=0.000000
_TIMESTARTED=3.000000
_TEMP_RATE=-1.000000
_TEMP_DELAY=-1.000000
_KV=40
_MA=35
_RANGE_WL=1.540600
_3DPLANE=0
_GONIOMETER=-0.002800
_PSDCHANNEL0=0
_2THETACOUNTS
  -1.0000         2
  -0.9600         0
  -0.9200         2
  -0.8800         0
  -0.8400         7
  -0.8000         4
  -0.7600        10
  -0.7200        13
  -0.6800         8
  -0.6400        12
  -0.6000        18
  -0.5600        19
  -0.5200        19
  -0.4800        38
  -0.4400        57
  -0.4000        70
  -0.3600       205
  -0.3200      2735
  -0.2800     13939
  -0.2400     33952
  -0.2000     61084
  -0.1600     94460
  -0.1200    133822
  -0.0800    177973
  -0.0400    218127
   0.0000    215141
   0.0400    171082
   0.0800    140888
   0.1200    104634
   0.1600     75188
   0.2000     50464
   0.2400     30014
   0.2800     14230
   0.3200      4273
   0.3600       445
   0.4000        95
   0.4400        58
   0.4800        42
   0.5200        23
   0.5600        25
   0.6000        20
   0.6400        17
   0.6800        10
   0.7200         9
   0.7600         6
   0.8000         3
   0.8400         4
   0.8800         2
   0.9200         4
   0.9600         2
   1.0000         1

File: rockingscan_1_2.UXD
; C:\DIFFDAT1\Praktikum\Teasdale Wagner\rockingscan_1_2.raw(Diffrac Plus V1.01 file) converted by XCH V1.0
_FILEVERSION=2
_SITE='Deutschland'
_USER='Administrator'
_GONIOMETER_CODE=4885
; D8 Theta/Theta; Special
_SAMPLE_CHANGER_CODE=0
_ATTACHMENTS_CODE=0
_GONIOMETER_RADIUS=350
_FIXED_DIVSLIT=0.600000
_FIXED_SAMPLESLIT=0.000000
_FIXED_DETSLIT=11.66
_MONOCHROMATOR=0
; None
_THIN_FILM='N'
_BETA_FILTER='Y'
_FIXED_ANTISLIT=8.340000
_ANALYZER_CODE=0
; None
_DATEMEASURED='15-May-2023 09:44:39'
_WL_UNIT='A'
_WL1=1.540600
_WL2=1.544390
_WL3=1.392220
_WLRATIO=0.500000
_ANODE='Cu'
; (Data for Range number 1)
_DRIVE='THETA'
_STEPTIME=1.000000
_STEPSIZE=0.040000
_STEPMODE='C'
_START=-1.000000
_THETA=-1.000000
_2THETA=0.000000
_KHI=0.000000
_PHI=92.46
_X=3.061000
_Y=0.000000
_Z=0.326000
_DIVERGENCE=0.000000
_ANTISCATTER=0.000000
_DETECTOR=5
_DETECTORSLIT='unkn'
_AUX1=0.000000
_AUX2=0.000000
_AUX3=0.000000
_TIMESTARTED=3.000000
_TEMP_RATE=-1.000000
_TEMP_DELAY=-1.000000
_KV=40
_MA=35
_RANGE_WL=1.540600
_3DPLANE=0
_GONIOMETER=0.000000
_PSDCHANNEL0=0
_2THETACOUNTS
  -1.0000         0
  -0.9600         0
  -0.9200         0
  -0.8800         2
  -0.8400         0
  -0.8000         2
  -0.7600         2
  -0.7200         2
  -0.6800         5
  -0.6400        12
  -0.6000         9
  -0.5600        14
  -0.5200        16
  -0.4800        27
  -0.4400        31
  -0.4000        35
  -0.3600        89
  -0.3200       149
  -0.2800      1567
  -0.2400     10606
  -0.2000     28527
  -0.1600     53696
  -0.1200     85485
  -0.0800    124381
  -0.0400    165717
   0.0000    207604
   0.0400    235641
   0.0800    196931
   0.1200    159438
   0.1600    129173
   0.2000     95386
   0.2400     67257
   0.2800     44144
   0.3200     24915
   0.3600     10524
   0.4000      2550
   0.4400       248
   0.4800        83
   0.5200        48
   0.5600        41
   0.6000        40
   0.6400        28
   0.6800        16
   0.7200        18
   0.7600        17
   0.8000        15
   0.8400         7
   0.8800         9
   0.9200         5
   0.9600         2
   1.0000         5

File: rockingscan_1_3.UXD
; C:\DIFFDAT1\Praktikum\Teasdale Wagner\rockingscan_1_3.raw(Diffrac Plus V1.01 file) converted by XCH V1.0
_FILEVERSION=2
_SITE='Deutschland'
_USER='Administrator'
_GONIOMETER_CODE=4885
; D8 Theta/Theta; Special
_SAMPLE_CHANGER_CODE=0
_ATTACHMENTS_CODE=0
_GONIOMETER_RADIUS=350
_FIXED_DIVSLIT=0.600000
_FIXED_SAMPLESLIT=0.000000
_FIXED_DETSLIT=11.66
_MONOCHROMATOR=0
; None
_THIN_FILM='N'
_BETA_FILTER='Y'
_FIXED_ANTISLIT=8.340000
_ANALYZER_CODE=0
; None
_DATEMEASURED='15-May-2023 09:46:13'
_WL_UNIT='A'
_WL1=1.540600
_WL2=1.544390
_WL3=1.392220
_WLRATIO=0.500000
_ANODE='Cu'
; (Data for Range number 1)
_DRIVE='THETA'
_STEPTIME=1.000000
_STEPSIZE=0.040000
_STEPMODE='C'
_START=-1.000000
_THETA=-1.000000
_2THETA=0.000000
_KHI=0.000000
_PHI=92.46
_X=3.061000
_Y=0.000000
_Z=0.326000
_DIVERGENCE=0.000000
_ANTISCATTER=0.000000
_DETECTOR=5
_DETECTORSLIT='unkn'
_AUX1=0.000000
_AUX2=0.000000
_AUX3=0.000000
_TIMESTARTED=3.000000
_TEMP_RATE=-1.000000
_TEMP_DELAY=-1.000000
_KV=40
_MA=35
_RANGE_WL=1.540600
_3DPLANE=0
_GONIOMETER=-0.003400
_PSDCHANNEL0=0
_2THETACOUNTS
  -1.0000         0
  -0.9600         0
  -0.9200         0
  -0.8800         1
  -0.8400         2
  -0.8000         3
  -0.7600         5
  -0.7200         5
  -0.6800         9
  -0.6400         4
  -0.6000        16
  -0.5600        20
  -0.5200        25
  -0.4800        28
  -0.4400        50
  -0.4000        65
  -0.3600       145
  -0.3200      1543
  -0.2800     10447
  -0.2400     28851
  -0.2000     53914
  -0.1600     85478
  -0.1200    123190
  -0.0800    165659
  -0.0400    207865
   0.0000    237055
   0.0400    205463
   0.0800    163246
   0.1200    134423
   0.1600     99479
   0.2000     71285
   0.2400     47271
   0.2800     27071
   0.3200     12106
   0.3600      3352
   0.4000       298
   0.4400        89
   0.4800        66
   0.5200        50
   0.5600        34
   0.6000        20
   0.6400        19
   0.6800        26
   0.7200        16
   0.7600        11
   0.8000         7
   0.8400         7
   0.8800         1
   0.9200         4
   0.9600         6
   1.0000         4

File: rockingscan_2_1.UXD
; C:\DIFFDAT1\Praktikum\Teasdale Wagner\rockingscan_2_1.raw(Diffrac Plus V1.01 file) converted by XCH V1.0
_FILEVERSION=2
_SITE='Deutschland'
_USER='Administrator'
_GONIOMETER_CODE=4885
; D8 Theta/Theta; Special
_SAMPLE_CHANGER_CODE=0
_ATTACHMENTS_CODE=0
_GONIOMETER_RADIUS=350
_FIXED_DIVSLIT=0.600000
_FIXED_SAMPLESLIT=0.000000
_FIXED_DETSLIT=11.66
_MONOCHROMATOR=0
; None
_THIN_FILM='N'
_BETA_FILTER='Y'
_FIXED_ANTISLIT=8.340000
_ANALYZER_CODE=0
; None
_DATEMEASURED='15-May-2023 10:07:15'
_WL_UNIT='A'
_WL1=1.540600
_WL2=1.544390
_WL3=1.392220
_WLRATIO=0.500000
_ANODE='Cu'
; (Data for Range number 1)
_DRIVE='THETA'
_STEPTIME=0.999980
_STEPSIZE=0.005000
_STEPMODE='C'
_START=0.000000
_THETA=0.000000
_2THETA=0.300000
_KHI=0.000000
_PHI=92.46
_X=3.061000
_Y=-0.850000
_Z=0.326000
_DIVERGENCE=0.000000
_ANTISCATTER=0.000000
_DETECTOR=5
_DETECTORSLIT='unkn'
_AUX1=0.000000
_AUX2=0.000000
_AUX3=0.000000
_TIMESTARTED=2.000000
_TEMP_RATE=-1.000000
_TEMP_DELAY=-1.000000
_KV=40
_MA=35
_RANGE_WL=1.540600
_3DPLANE=0
_GONIOMETER=0.299800
_PSDCHANNEL0=0
_2THETACOUNTS
   0.0000      1531
   0.0050      1587
   0.0100      1604
   0.0150      1624
   0.0200      1534
   0.0250      1636
   0.0300      1614
   0.0350      1571
   0.0400      1656
   0.0450      1619
   0.0500      1680
   0.0550      1711
   0.0600      1790
   0.0650      1925
   0.0700      2065
   0.0750      2229
   0.0800      2632
   0.0850      2869
   0.0900      3663
   0.0950      4701
   0.1000      6735
   0.1050      9294
   0.1100     12114
   0.1150     14321
   0.1200     16953
   0.1250     19752
   0.1300     24867
   0.1350     45137
   0.1400     87809
   0.1450    155038
   0.1500    208955
   0.1550    216033
   0.1600    179464
   0.1650    109184
   0.1700     58183
   0.1750     27125
   0.1800     19693
   0.1850     16492
   0.1900     13887
   0.1950     11238
   0.2000      8410
   0.2050      6439
   0.2100      5197
   0.2150      4330
   0.2200      3589
   0.2250      3052
   0.2300      2617
   0.2350      2392
   0.2400      2193
   0.2450      2107
   0.2500      2032
   0.2550      1996
   0.2600      1811
   0.2650      1791
   0.2700      1735
   0.2750      1741
   0.2800      1727
   0.2850      1672
   0.2900      1671
   0.2950      1630
   0.3000      1613