Folder: fortgeschrittenenpraktikum/v44/tables (part 2)

File: rockingscan_2_2.UXD
; C:\DIFFDAT1\Praktikum\Teasdale Wagner\rockingscan_2_2.raw(Diffrac Plus V1.01 file) converted by XCH V1.0
_FILEVERSION=2
_SITE='Deutschland'
_USER='Administrator'
_GONIOMETER_CODE=4885
; D8 Theta/Theta; Special
_SAMPLE_CHANGER_CODE=0
_ATTACHMENTS_CODE=0
_GONIOMETER_RADIUS=350
_FIXED_DIVSLIT=0.600000
_FIXED_SAMPLESLIT=0.000000
_FIXED_DETSLIT=11.66
_MONOCHROMATOR=0
; None
_THIN_FILM='N'
_BETA_FILTER='Y'
_FIXED_ANTISLIT=8.340000
_ANALYZER_CODE=0
; None
_DATEMEASURED='15-May-2023 10:25:58'
_WL_UNIT='A'
_WL1=1.540600
_WL2=1.544390
_WL3=1.392220
_WLRATIO=0.500000
_ANODE='Cu'
; (Data for Range number 1)
_DRIVE='THETA'
_STEPTIME=1.000000
_STEPSIZE=0.001000
_STEPMODE='S'
_START=-0.075000
_THETA=-0.075000
_2THETA=0.300000
_KHI=0.000000
_PHI=92.46
_X=3.061000
_Y=-0.590000
_Z=0.326000
_DIVERGENCE=0.000000
_ANTISCATTER=0.000000
_DETECTOR=5
_DETECTORSLIT='unkn'
_AUX1=0.000000
_AUX2=0.000000
_AUX3=0.000000
_TIMESTARTED=3.000000
_TEMP_RATE=-1.000000
_TEMP_DELAY=-1.000000
_KV=40
_MA=35
_RANGE_WL=1.540600
_3DPLANE=0
_GONIOMETER=0.300000
_PSDCHANNEL0=0
_2THETACOUNTS
  -0.0750      2485
  -0.0740      2502
  -0.0730      2534
  -0.0720      2641
  -0.0710      2607
  -0.0700      2760
  -0.0690      2801
  -0.0680      3029
  -0.0670      2955
  -0.0660      3208
  -0.0650      3158
  -0.0640      3369
  -0.0630      3483
  -0.0620      3568
  -0.0610      3921
  -0.0600      4212
  -0.0590      4379
  -0.0580      4476
  -0.0570      4768
  -0.0560      5024
  -0.0550      5540
  -0.0540      5898
  -0.0530      6294
  -0.0520      6721
  -0.0510      7286
  -0.0500      7867
  -0.0490      8216
  -0.0480      8744
  -0.0470      9157
  -0.0460      9748
  -0.0450     10315
  -0.0440     10995
  -0.0430     11211
  -0.0420     11747
  -0.0410     12201
  -0.0400     12629
  -0.0390     13088
  -0.0380     13588
  -0.0370     13799
  -0.0360     14148
  -0.0350     14814
  -0.0340     15142
  -0.0330     15820
  -0.0320     16276
  -0.0310     17001
  -0.0300     17586
  -0.0290     17862
  -0.0280     18540
  -0.0270     19446
  -0.0260     19999
  -0.0250     20664
  -0.0240     21477
  -0.0230     22877
  -0.0220     24936
  -0.0210     27781
  -0.0200     31613
  -0.0190     36842
  -0.0180     42566
  -0.0170     48861
  -0.0160     56127
  -0.0150     63938
  -0.0140     72755
  -0.0130     83407
  -0.0120     95102
  -0.0110    106903
  -0.0100    117865
  -0.0090    130635
  -0.0080    144188
  -0.0070    158076
  -0.0060    171760
  -0.0050    183507
  -0.0040    195699
  -0.0030    196844
  -0.0020    197832
  -0.0010    198725
   0.0000    202540
   0.0010    205771
   0.0020    202509
   0.0030    197208
   0.0040    194119
   0.0050    187285
   0.0060    175412
   0.0070    165600
   0.0080    157739
   0.0090    140758
   0.0100    141069
   0.0110    128812
   0.0120    114162
   0.0130    101953
   0.0140     89259
   0.0150     77847
   0.0160     66794
   0.0170     55026
   0.0180     46090
   0.0190     38389
   0.0200     32284
   0.0210     27786
   0.0220     24504
   0.0230     22520
   0.0240     21447
   0.0250     20241
   0.0260     19178
   0.0270     18289
   0.0280     17433
   0.0290     16858
   0.0300     16359
   0.0310     15807
   0.0320     15082
   0.0330     14689
   0.0340     14561
   0.0350     13973
   0.0360     13465
   0.0370     12764
   0.0380     12471
   0.0390     11872
   0.0400     11396
   0.0410     10848
   0.0420     10368
   0.0430     10083
   0.0440      9473
   0.0450      8798
   0.0460      8250
   0.0470      7914
   0.0480      7331
   0.0490      7234
   0.0500      6757
   0.0510      6416
   0.0520      6091
   0.0530      5791
   0.0540      5489
   0.0550      5391
   0.0560      5147
   0.0570      5118
   0.0580      4640
   0.0590      4694
   0.0600      4600
   0.0610      4393
   0.0620      4187
   0.0630      4094
   0.0640      3811
   0.0650      3750
   0.0660      3653
   0.0670      3451
   0.0680      3376
   0.0690      3330
   0.0700      3220
   0.0710      3106
   0.0720      2954
   0.0730      2958
   0.0740      2839
   0.0750      2816

File: rockingscan_3_1.UXD
; C:\DIFFDAT1\Praktikum\Teasdale Wagner\rockingscan_3_1.raw(Diffrac Plus V1.01 file) converted by XCH V1.0
_FILEVERSION=2
_SITE='Deutschland'
_USER='Administrator'
_GONIOMETER_CODE=4885
; D8 Theta/Theta; Special
_SAMPLE_CHANGER_CODE=0
_ATTACHMENTS_CODE=0
_GONIOMETER_RADIUS=350
_FIXED_DIVSLIT=0.600000
_FIXED_SAMPLESLIT=0.000000
_FIXED_DETSLIT=11.66
_MONOCHROMATOR=0
; None
_THIN_FILM='N'
_BETA_FILTER='Y'
_FIXED_ANTISLIT=8.340000
_ANALYZER_CODE=0
; None
_DATEMEASURED='15-May-2023 10:49:48'
_WL_UNIT='A'
_WL1=1.540600
_WL2=1.544390
_WL3=1.392220
_WLRATIO=0.500000
_ANODE='Cu'
; (Data for Range number 1)
_DRIVE='THETA'
_STEPTIME=1.000000
_STEPSIZE=0.005000
_STEPMODE='S'
_START=0.200000
_THETA=0.200000
_2THETA=0.500000
_KHI=0.000000
_PHI=92.46
_X=3.061000
_Y=-0.590000
_Z=0.872000
_DIVERGENCE=0.000000
_ANTISCATTER=0.000000
_DETECTOR=5
_DETECTORSLIT='unkn'
_AUX1=0.000000
_AUX2=0.000000
_AUX3=0.000000
_TIMESTARTED=2.000000
_TEMP_RATE=-1.000000
_TEMP_DELAY=-1.000000
_KV=40
_MA=35
_RANGE_WL=1.540600
_3DPLANE=0
_GONIOMETER=0.500000
_PSDCHANNEL0=0
_2THETACOUNTS
   0.2000       147
   0.2050       155
   0.2100       139
   0.2150       128
   0.2200       145
   0.2250       149
   0.2300       153
   0.2350       145
   0.2400       158
   0.2450       143
   0.2500       168
   0.2550       156
   0.2600       151
   0.2650       145
   0.2700       171
   0.2750       166
   0.2800       202
   0.2850       329
   0.2900       528
   0.2950       779
   0.3000       968
   0.3050       929
   0.3100       687
   0.3150       392
   0.3200       257
   0.3250       172
   0.3300       212
   0.3350       149
   0.3400       172
   0.3450       141
   0.3500       156
   0.3550       148
   0.3600       167
   0.3650       143
   0.3700       163
   0.3750       149
   0.3800       143
   0.3850       140
   0.3900       136
   0.3950       122
   0.4000       117
   0.4050       119
   0.4100       128
   0.4150       145
   0.4200       160
   0.4250       140
   0.4300       139
   0.4350       138
   0.4400       136
   0.4450       131
   0.4500       127
   0.4550       140
   0.4600       142
   0.4650       131
   0.4700       138
   0.4750       136
   0.4800       123
   0.4850       131
   0.4900       150
   0.4950       148
   0.5000       132

File: rockingscan_4_1.UXD
; C:\DIFFDAT1\Praktikum\Teasdale Wagner\rockingscan_4_1.raw(Diffrac Plus V1.01 file) converted by XCH V1.0
_FILEVERSION=2
_SITE='Deutschland'
_USER='Administrator'
_GONIOMETER_CODE=4885
; D8 Theta/Theta; Special
_SAMPLE_CHANGER_CODE=0
_ATTACHMENTS_CODE=0
_GONIOMETER_RADIUS=350
_FIXED_DIVSLIT=0.600000
_FIXED_SAMPLESLIT=0.000000
_FIXED_DETSLIT=11.66
_MONOCHROMATOR=0
; None
_THIN_FILM='N'
_BETA_FILTER='Y'
_FIXED_ANTISLIT=8.340000
_ANALYZER_CODE=0
; None
_DATEMEASURED='15-May-2023 11:13:20'
_WL_UNIT='A'
_WL1=1.540600
_WL2=1.544390
_WL3=1.392220
_WLRATIO=0.500000
_ANODE='Cu'
; (Data for Range number 1)
_DRIVE='THETA'
_STEPTIME=0.500000
_STEPSIZE=0.005000
_STEPMODE='S'
_START=0.000000
_THETA=0.000000
_2THETA=0.500000
_KHI=0.000000
_PHI=92.46
_X=3.061000
_Y=-0.575000
_Z=0.385000
_DIVERGENCE=0.000000
_ANTISCATTER=0.000000
_DETECTOR=5
_DETECTORSLIT='unkn'
_AUX1=0.000000
_AUX2=0.000000
_AUX3=0.000000
_TIMESTARTED=2.000000
_TEMP_RATE=-1.000000
_TEMP_DELAY=-1.000000
_KV=40
_MA=35
_RANGE_WL=1.540600
_3DPLANE=0
_GONIOMETER=0.500000
_PSDCHANNEL0=0
_2THETACOUNTS
   0.0000        86
   0.0050        66
   0.0100        80
   0.0150        61
   0.0200        74
   0.0250        83
   0.0300        61
   0.0350        65
   0.0400        63
   0.0450        67
   0.0500        71
   0.0550        70
   0.0600        70
   0.0650        83
   0.0700        64
   0.0750        69
   0.0800        71
   0.0850        74
   0.0900        90
   0.0950        87
   0.1000       103
   0.1050       107
   0.1100       103
   0.1150       114
   0.1200       118
   0.1250       113
   0.1300       111
   0.1350       133
   0.1400       141
   0.1450       158
   0.1500       150
   0.1550       183
   0.1600       189
   0.1650       197
   0.1700       228
   0.1750       266
   0.1800       318
   0.1850       435
   0.1900       487
   0.1950       581
   0.2000       730
   0.2050       893
   0.2100      1294
   0.2150      1943
   0.2200      2851
   0.2250      4235
   0.2300      6584
   0.2350     12226
   0.2400     23955
   0.2450     38684
   0.2500     42521
   0.2550     35359
   0.2600     23414
   0.2650     13541
   0.2700      7062
   0.2750      3954
   0.2800      2539
   0.2850      1758
   0.2900      1258
   0.2950       893
   0.3000       692
   0.3050       555
   0.3100       461
   0.3150       370
   0.3200       302
   0.3250       209
   0.3300       251
   0.3350       194
   0.3400       191
   0.3450       175
   0.3500       142
   0.3550       175
   0.3600       155
   0.3650       119
   0.3700       128
   0.3750        93
   0.3800       112
   0.3850       117
   0.3900        99
   0.3950        97
   0.4000        89
   0.4050        90
   0.4100        96
   0.4150       101
   0.4200        78
   0.4250        94
   0.4300        85
   0.4350        78
   0.4400        69
   0.4450        70
   0.4500        88
   0.4550        77
   0.4600        83
   0.4650        70
   0.4700        74
   0.4750        72
   0.4800        79
   0.4850        69
   0.4900        82
   0.4950        73
   0.5000        73

File: x_scan1.UXD
; C:\DIFFDAT1\Praktikum\Teasdale Wagner\x_scan1.raw(Diffrac Plus V1.01 file) converted by XCH V1.0
_FILEVERSION=2
_SITE='Deutschland'
_USER='Administrator'
_GONIOMETER_CODE=4885
; D8 Theta/Theta; Special
_SAMPLE_CHANGER_CODE=0
_ATTACHMENTS_CODE=0
_GONIOMETER_RADIUS=350
_FIXED_DIVSLIT=0.600000
_FIXED_SAMPLESLIT=0.000000
_FIXED_DETSLIT=11.66
_MONOCHROMATOR=0
; None
_THIN_FILM='N'
_BETA_FILTER='Y'
_FIXED_ANTISLIT=8.340000
_ANALYZER_CODE=0
; None
_DATEMEASURED='15-May-2023 09:35:57'
_WL_UNIT='A'
_WL1=1.540600
_WL2=1.544390
_WL3=1.392220
_WLRATIO=0.500000
_ANODE='Cu'
; (Data for Range number 1)
_DRIVE='X'
_STEPTIME=1.000000
_STEPSIZE=1.000000
_STEPMODE='S'
_START=-20
_THETA=0.000000
_2THETA=0.000000
_KHI=0.000000
_PHI=92.46
_X=-20
_Y=0.000000
_Z=0.326000
_DIVERGENCE=0.000000
_ANTISCATTER=0.000000
_DETECTOR=5
_DETECTORSLIT='unkn'
_AUX1=0.000000
_AUX2=0.000000
_AUX3=0.000000
_TIMESTARTED=4.000000
_TEMP_RATE=-1.000000
_TEMP_DELAY=-1.000000
_KV=40
_MA=35
_RANGE_WL=1.540600
_3DPLANE=0
_GONIOMETER=0.000000
_PSDCHANNEL0=0
_2THETACOUNTS
 -20.0000    537208
 -19.0000    537421
 -18.0000    537974
 -17.0000    535762
 -16.0000    535478
 -15.0000    536758
 -14.0000    536750
 -13.0000    532270
 -12.0000    540170
 -11.0000    489603
 -10.0000    429144
  -9.0000    405183
  -8.0000    396501
  -7.0000    384130
  -6.0000    372193
  -5.0000    357609
  -4.0000    346139
  -3.0000    330726
  -2.0000    314404
  -1.0000    296977
   0.0000    279368
   1.0000    266364
   2.0000    249869
   3.0000    235373
   4.0000    222346
   5.0000    206893
   6.0000    193432
   7.0000    178058
   8.0000    164312
   9.0000    156822
  10.0000    142330
  11.0000    130263
  12.0000    298865
  13.0000    529505
  14.0000    528036
  15.0000    526251
  16.0000    527254
  17.0000    527207
  18.0000    527989
  19.0000    529197
  20.0000    527380

File: z_scan1.UXD
; C:\DIFFDAT1\Praktikum\Teasdale Wagner\z_scan1.raw(Diffrac Plus V1.01 file) converted by XCH V1.0
_FILEVERSION=2
_SITE='Deutschland'
_USER='Administrator'
_GONIOMETER_CODE=4885
; D8 Theta/Theta; Special
_SAMPLE_CHANGER_CODE=0
_ATTACHMENTS_CODE=0
_GONIOMETER_RADIUS=350
_FIXED_DIVSLIT=0.600000
_FIXED_SAMPLESLIT=0.000000
_FIXED_DETSLIT=11.66
_MONOCHROMATOR=0
; None
_THIN_FILM='N'
_BETA_FILTER='Y'
_FIXED_ANTISLIT=8.340000
_ANALYZER_CODE=0
; None
_DATEMEASURED='15-May-2023 09:31:56'
_WL_UNIT='A'
_WL1=1.540600
_WL2=1.544390
_WL3=1.392220
_WLRATIO=0.500000
_ANODE='Cu'
; (Data for Range number 1)
_DRIVE='Z'
_STEPTIME=1.000000
_STEPSIZE=0.020000
_STEPMODE='S'
_START=0.000000
_THETA=0.000000
_2THETA=0.000000
_KHI=0.000000
_PHI=92.46
_X=0.000000
_Y=0.000000
_Z=0.000000
_DIVERGENCE=0.000000
_ANTISCATTER=0.000000
_DETECTOR=5
_DETECTORSLIT='unkn'
_AUX1=0.000000
_AUX2=0.000000
_AUX3=0.000000
_TIMESTARTED=5.000000
_TEMP_RATE=-1.000000
_TEMP_DELAY=-1.000000
_KV=40
_MA=35
_RANGE_WL=1.540600
_3DPLANE=0
_GONIOMETER=0.000000
_PSDCHANNEL0=0
_2THETACOUNTS
   0.0000    537919
   0.0200    537690
   0.0400    536939
   0.0600    533645
   0.0800    535833
   0.1000    534040
   0.1200    537982
   0.1400    533708
   0.1600    536687
   0.1800    537374
   0.2000    536047
   0.2200    533756
   0.2400    537010
   0.2600    539562
   0.2800    506880
   0.3000    430811
   0.3200    308463
   0.3400    170522
   0.3600     63945
   0.3800     11621
   0.4000       231
   0.4200        40
   0.4400        16
   0.4600         5
   0.4800         2
   0.5000         1
   0.5200         0
   0.5400         2
   0.5600         2
   0.5800         0
   0.6000         3
   0.6200         2
   0.6400         5
   0.6600         8
   0.6800         9
   0.7000         9
   0.7200        12
   0.7400        27
   0.7600        18
   0.7800        35
   0.8000        35

File: z_scan2.UXD
; C:\DIFFDAT1\Praktikum\Teasdale Wagner\z_scan2.raw(Diffrac Plus V1.01 file) converted by XCH V1.0
_FILEVERSION=2
_SITE='Deutschland'
_USER='Administrator'
_GONIOMETER_CODE=4885
; D8 Theta/Theta; Special
_SAMPLE_CHANGER_CODE=0
_ATTACHMENTS_CODE=0
_GONIOMETER_RADIUS=350
_FIXED_DIVSLIT=0.600000
_FIXED_SAMPLESLIT=0.000000
_FIXED_DETSLIT=11.66
_MONOCHROMATOR=0
; None
_THIN_FILM='N'
_BETA_FILTER='Y'
_FIXED_ANTISLIT=8.340000
_ANALYZER_CODE=0
; None
_DATEMEASURED='15-May-2023 09:58:29'
_WL_UNIT='A'
_WL1=1.540600
_WL2=1.544390
_WL3=1.392220
_WLRATIO=0.500000
_ANODE='Cu'
; (Data for Range number 1)
_DRIVE='Z'
_STEPTIME=1.000000
_STEPSIZE=0.010000
_STEPMODE='S'
_START=-0.500000
_THETA=-0.044300
_2THETA=0.000000
_KHI=0.000000
_PHI=92.46
_X=3.061000
_Y=-0.850000
_Z=-0.500000
_DIVERGENCE=0.000000
_ANTISCATTER=0.000000
_DETECTOR=5
_DETECTORSLIT='unkn'
_AUX1=0.000000
_AUX2=0.000000
_AUX3=0.000000
_TIMESTARTED=3.000000
_TEMP_RATE=-1.000000
_TEMP_DELAY=-1.000000
_KV=40
_MA=35
_RANGE_WL=1.540600
_3DPLANE=0
_GONIOMETER=0.000000
_PSDCHANNEL0=0
_2THETACOUNTS
  -0.5000    490337
  -0.4900    493007
  -0.4800    495938
  -0.4700    494911
  -0.4600    493118
  -0.4500    494982
  -0.4400    495662
  -0.4300    494801
  -0.4200    493869
  -0.4100    493829
  -0.4000    494982
  -0.3900    492668
  -0.3800    494185
  -0.3700    491720
  -0.3600    496847
  -0.3500    490645
  -0.3400    494003
  -0.3300    496136
  -0.3200    493300
  -0.3100    494572
  -0.3000    495188
  -0.2900    492913
  -0.2800    492881
  -0.2700    492660
  -0.2600    493813
  -0.2500    492541
  -0.2400    491736
  -0.2300    491072
  -0.2200    492913
  -0.2100    492747
  -0.2000    492715
  -0.1900    495362
  -0.1800    495670
  -0.1700    493537
  -0.1600    495156
  -0.1500    490108
  -0.1400    491293
  -0.1300    494824
  -0.1200    492921
  -0.1100    495670
  -0.1000    489840
  -0.0900    492684
  -0.0800    493837
  -0.0700    490005
  -0.0600    492146
  -0.0500    491427
  -0.0400    492249
  -0.0300    494264
  -0.0200    491988
  -0.0100    493481
   0.0000    488315
   0.0100    492320
   0.0200    493584
   0.0300    492549
   0.0400    487462
   0.0500    491775
   0.0600    488884
   0.0700    489800
   0.0800    488473
   0.0900    485771
   0.1000    492233
   0.1100    494414
   0.1200    486901
   0.1300    489563
   0.1400    493908
   0.1500    492628
   0.1600    490274
   0.1700    490985
   0.1800    487817
   0.1900    489405
   0.2000    490069
   0.2100    490969
   0.2200    490914
   0.2300    490566
   0.2400    497392
   0.2500    491427
   0.2600    493655
   0.2700    489389
   0.2800    468020
   0.2900    442724
   0.3000    399369
   0.3100    349156
   0.3200    282251
   0.3300    210764
   0.3400    150882
   0.3500     91869
   0.3600     57848
   0.3700     24362
   0.3800      4606
   0.3900       344
   0.4000       110
   0.4100        66
   0.4200        34
   0.4300        23
   0.4400        16
   0.4500        11
   0.4600         5
   0.4700         5
   0.4800         4
   0.4900         1
   0.5000         1